{"resourceType":"Bundle","id":"oncologyexamples-r4","type":"transaction","entry":[{"fullUrl":"urn:uuid:d0b4affa-91d6-46d1-af01-b30d9f16ef6d","resource":{"resourceType":"Patient","text":{"status":"generated","div":"<div xmlns=\"http://www.w3.org/1999/xhtml\"><p><b>Generated Narrative with Details</b></p><p><b>identifier</b>: 1007</p><p><b>name</b>: Carrot John Mr </p><p><b>gender</b>: male</p><p><b>birthDate</b>: 1962-12-31</p><p><b>generalPractitioner</b>: <a href=\"urn:uuid:a48256f8-db37-44e0-a0f6-d7af16c7c9ef\">urn:uuid:a48256f8-db37-44e0-a0f6-d7af16c7c9ef</a></p></div>"},"identifier":[{"value":"1007"}],"name":[{"given":["Carrot","John","Mr"]}],"gender":"male","birthDate":"1962-12-31","generalPractitioner":[{"reference":"urn:uuid:a48256f8-db37-44e0-a0f6-d7af16c7c9ef"}]},"request":{"method":"POST","url":"Patient"}},{"fullUrl":"urn:uuid:a48256f8-db37-44e0-a0f6-d7af16c7c9ef","resource":{"resourceType":"Practitioner","text":{"status":"generated","div":"<div xmlns=\"http://www.w3.org/1999/xhtml\"><p><b>Generated Narrative with Details</b></p><p><b>identifier</b>: 4654765876</p><p><b>name</b>: Akerman Philip Prof </p><p><b>address</b>: Castro Valley CA </p></div>"},"identifier":[{"value":"4654765876"}],"name":[{"given":["Akerman","Philip","Prof"]}],"address":[{"city":"Castro Valley","state":"CA"}]},"request":{"method":"POST","url":"Practitioner"}},{"fullUrl":"urn:uuid:a5d6a6a9-4859-480e-85b2-56974fef3b9d","resource":{"resourceType":"Specimen","meta":{"profile":["http://hl7.org/fhir/uv/genomics-reporting/StructureDefinition/specimen"]},"text":{"status":"generated","div":"<div xmlns=\"http://www.w3.org/1999/xhtml\"><p><b>Generated Narrative with Details</b></p><p><b>meta</b>: </p><p><b>identifier</b>: 076e1948-2217-11e9-94d8-12e241dc1f66</p><p><b>status</b>: available</p><p><b>subject</b>: <a href=\"urn:uuid:d0b4affa-91d6-46d1-af01-b30d9f16ef6d\">urn:uuid:d0b4affa-91d6-46d1-af01-b30d9f16ef6d</a></p><h3>Collections</h3><table class=\"grid\"><tr><td>-</td><td><b>Collector</b></td></tr><tr><td>*</td><td><a href=\"urn:uuid:a48256f8-db37-44e0-a0f6-d7af16c7c9ef\">urn:uuid:a48256f8-db37-44e0-a0f6-d7af16c7c9ef</a></td></tr></table></div>"},"identifier":[{"value":"076e1948-2217-11e9-94d8-12e241dc1f66"}],"status":"available","subject":{"reference":"urn:uuid:d0b4affa-91d6-46d1-af01-b30d9f16ef6d"},"collection":{"collector":{"reference":"urn:uuid:a48256f8-db37-44e0-a0f6-d7af16c7c9ef"}}},"request":{"method":"POST","url":"Specimen"}},{"fullUrl":"urn:uuid:40e85eda-4d31-4bd2-a5a0-c39d63f9824f","resource":{"resourceType":"Observation","text":{"status":"generated","div":"<div xmlns=\"http://www.w3.org/1999/xhtml\"><p><b>Generated Narrative with Details</b></p><p><b>status</b>: final</p><p><b>code</b>: Tumor Mutational Burden <span style=\"background: LightGoldenRodYellow\">(Details )</span></p><p><b>subject</b>: <a href=\"urn:uuid:d0b4affa-91d6-46d1-af01-b30d9f16ef6d\">urn:uuid:d0b4affa-91d6-46d1-af01-b30d9f16ef6d</a></p><p><b>performer</b>: <a href=\"urn:uuid:a48256f8-db37-44e0-a0f6-d7af16c7c9ef\">urn:uuid:a48256f8-db37-44e0-a0f6-d7af16c7c9ef</a></p><p><b>value</b>: 25.0 somatic variants per megabase of sequenced DNA<span style=\"background: LightGoldenRodYellow\"> (Details: UCUM code v/Mb = 'v/Mb')</span></p><p><b>specimen</b>: <a href=\"urn:uuid:a5d6a6a9-4859-480e-85b2-56974fef3b9d\">urn:uuid:a5d6a6a9-4859-480e-85b2-56974fef3b9d</a></p></div>"},"status":"final","code":{"text":"Tumor Mutational Burden"},"subject":{"reference":"urn:uuid:d0b4affa-91d6-46d1-af01-b30d9f16ef6d"},"performer":[{"reference":"urn:uuid:a48256f8-db37-44e0-a0f6-d7af16c7c9ef"}],"valueQuantity":{"value":25.0,"unit":"somatic variants per megabase of sequenced DNA","system":"http://unitsofmeasure.org","code":"v/Mb"},"specimen":{"reference":"urn:uuid:a5d6a6a9-4859-480e-85b2-56974fef3b9d"}},"request":{"method":"POST","url":"Observation"}},{"fullUrl":"urn:uuid:64b91716-6431-41bd-8fd4-7ac99bebdee9","resource":{"resourceType":"Observation","text":{"status":"generated","div":"<div xmlns=\"http://www.w3.org/1999/xhtml\"><p><b>Generated Narrative with Details</b></p><p><b>status</b>: final</p><p><b>code</b>: MSI status <span style=\"background: LightGoldenRodYellow\">(Details )</span></p><p><b>subject</b>: <a href=\"urn:uuid:d0b4affa-91d6-46d1-af01-b30d9f16ef6d\">urn:uuid:d0b4affa-91d6-46d1-af01-b30d9f16ef6d</a></p><p><b>performer</b>: <a href=\"urn:uuid:a48256f8-db37-44e0-a0f6-d7af16c7c9ef\">urn:uuid:a48256f8-db37-44e0-a0f6-d7af16c7c9ef</a></p><p><b>value</b>: High</p><p><b>specimen</b>: <a href=\"urn:uuid:a5d6a6a9-4859-480e-85b2-56974fef3b9d\">urn:uuid:a5d6a6a9-4859-480e-85b2-56974fef3b9d</a></p></div>"},"status":"final","code":{"text":"MSI status"},"subject":{"reference":"urn:uuid:d0b4affa-91d6-46d1-af01-b30d9f16ef6d"},"performer":[{"reference":"urn:uuid:a48256f8-db37-44e0-a0f6-d7af16c7c9ef"}],"valueString":"High","specimen":{"reference":"urn:uuid:a5d6a6a9-4859-480e-85b2-56974fef3b9d"}},"request":{"method":"POST","url":"Observation"}},{"fullUrl":"urn:uuid:16fdd5fc-e665-48af-99e4-48d603f3e12d","resource":{"resourceType":"Observation","meta":{"profile":["http://hl7.org/fhir/uv/genomics-reporting/StructureDefinition/variant"]},"text":{"status":"generated","div":"<div xmlns=\"http://www.w3.org/1999/xhtml\"><p><b>Generated Narrative with Details</b></p><p><b>meta</b>: </p><p><b>status</b>: final</p><p><b>category</b>: Laboratory <span style=\"background: LightGoldenRodYellow\">(Details : {http://terminology.hl7.org/CodeSystem/observation-category code 'laboratory' = 'Laboratory)</span></p><p><b>code</b>: Genetic variant assessment <span style=\"background: LightGoldenRodYellow\">(Details : {LOINC code '69548-6' = 'Genetic variant assessment', given as 'Genetic variant assessment'})</span></p><p><b>subject</b>: <a href=\"urn:uuid:d0b4affa-91d6-46d1-af01-b30d9f16ef6d\">urn:uuid:d0b4affa-91d6-46d1-af01-b30d9f16ef6d</a></p><p><b>performer</b>: <a href=\"urn:uuid:a48256f8-db37-44e0-a0f6-d7af16c7c9ef\">urn:uuid:a48256f8-db37-44e0-a0f6-d7af16c7c9ef</a></p><p><b>value</b>: Present <span style=\"background: LightGoldenRodYellow\">(Details : {LOINC code 'LA9633-4' = 'Present', given as 'Present'})</span></p><p><b>method</b>: Sequencing <span style=\"background: LightGoldenRodYellow\">(Details : {LOINC code 'LA26398-0' = 'Sequencing', given as 'Sequencing'})</span></p><p><b>specimen</b>: <a href=\"urn:uuid:a5d6a6a9-4859-480e-85b2-56974fef3b9d\">urn:uuid:a5d6a6a9-4859-480e-85b2-56974fef3b9d</a></p><blockquote><p><b>component</b></p><p><b>code</b>: Genomic DNA change (gHGVS) <span style=\"background: LightGoldenRodYellow\">(Details : {LOINC code '81290-9' = 'Genomic DNA change (gHGVS)', given as 'Genomic DNA change (gHGVS)'})</span></p><p><b>value</b>: 9:g.5073770G&gt;T <span style=\"background: LightGoldenRodYellow\">(Details : {http://varnomen.hgvs.org code '9:g.5073770G&gt;T' = '9:g.5073770G&gt;T', given as '9:g.5073770G&gt;T'})</span></p></blockquote><blockquote><p><b>component</b></p><p><b>code</b>: Amino acid change (pHGVS) <span style=\"background: LightGoldenRodYellow\">(Details : {LOINC code '48005-3' = 'Amino acid change (pHGVS)', given as 'Amino acid change (pHGVS)'})</span></p><p><b>value</b>: p.Val617Phe <span style=\"background: LightGoldenRodYellow\">(Details : {http://varnomen.hgvs.org code 'p.Val617Phe' = 'p.Val617Phe', given as 'p.Val617Phe'})</span></p></blockquote><blockquote><p><b>component</b></p><p><b>code</b>: Amino acid change type <span style=\"background: LightGoldenRodYellow\">(Details : {LOINC code '48006-1' = 'Amino acid change [Type]', given as 'Amino acid change type'})</span></p><p><b>value</b>: Missense <span style=\"background: LightGoldenRodYellow\">(Details : {LOINC code 'LA6698-0' = 'Missense', given as 'Missense'})</span></p></blockquote><blockquote><p><b>component</b></p><p><b>code</b>: Genomic source class <span style=\"background: LightGoldenRodYellow\">(Details : {LOINC code '48002-0' = 'Genomic source class [Type]', given as 'Genomic source class'})</span></p><p><b>value</b>: Germline <span style=\"background: LightGoldenRodYellow\">(Details : {LOINC code 'LA6683-2' = 'Germline', given as 'Germline'})</span></p></blockquote><blockquote><p><b>component</b></p><p><b>code</b>: Gene studied ID <span style=\"background: LightGoldenRodYellow\">(Details : {LOINC code '48018-6' = 'Gene studied [ID]', given as 'Gene studied ID'})</span></p><p><b>value</b>: JAK2 <span style=\"background: LightGoldenRodYellow\">(Details : {http://www.genenames.org/geneId code 'null' = 'null', given as 'JAK2'})</span></p></blockquote></div>"},"status":"final","category":[{"coding":[{"system":"http://terminology.hl7.org/CodeSystem/observation-category","code":"laboratory"}]}],"code":{"coding":[{"system":"http://loinc.org","code":"69548-6","display":"Genetic variant assessment"}]},"subject":{"reference":"urn:uuid:d0b4affa-91d6-46d1-af01-b30d9f16ef6d"},"performer":[{"reference":"urn:uuid:a48256f8-db37-44e0-a0f6-d7af16c7c9ef"}],"valueCodeableConcept":{"coding":[{"system":"http://loinc.org","code":"LA9633-4","display":"Present"}]},"method":{"coding":[{"system":"http://loinc.org","code":"LA26398-0","display":"Sequencing"}]},"specimen":{"reference":"urn:uuid:a5d6a6a9-4859-480e-85b2-56974fef3b9d"},"component":[{"code":{"coding":[{"system":"http://loinc.org","code":"81290-9","display":"Genomic DNA change (gHGVS)"}]},"valueCodeableConcept":{"coding":[{"system":"http://varnomen.hgvs.org","code":"9:g.5073770G>T","display":"9:g.5073770G>T"}]}},{"code":{"coding":[{"system":"http://loinc.org","code":"48005-3","display":"Amino acid change (pHGVS)"}]},"valueCodeableConcept":{"coding":[{"system":"http://varnomen.hgvs.org","code":"p.Val617Phe","display":"p.Val617Phe"}]}},{"code":{"coding":[{"system":"http://loinc.org","code":"48006-1","display":"Amino acid change type"}]},"valueCodeableConcept":{"coding":[{"system":"http://loinc.org","code":"LA6698-0","display":"Missense"}]}},{"code":{"coding":[{"system":"http://loinc.org","code":"48002-0","display":"Genomic source class"}]},"valueCodeableConcept":{"coding":[{"system":"http://loinc.org","code":"LA6683-2","display":"Germline"}]}},{"code":{"coding":[{"system":"http://loinc.org","code":"48018-6","display":"Gene studied ID"}]},"valueCodeableConcept":{"coding":[{"system":"http://www.genenames.org/geneId","display":"JAK2"}]}}]},"request":{"method":"POST","url":"Observation"}},{"fullUrl":"urn:uuid:772de7d7-e1bd-4183-bdb5-cea8eda317cd","resource":{"resourceType":"Observation","meta":{"profile":["http://hl7.org/fhir/uv/genomics-reporting/StructureDefinition/variant"]},"text":{"status":"generated","div":"<div xmlns=\"http://www.w3.org/1999/xhtml\"><p><b>Generated Narrative with Details</b></p><p><b>meta</b>: </p><p><b>status</b>: final</p><p><b>category</b>: Laboratory <span style=\"background: LightGoldenRodYellow\">(Details : {http://terminology.hl7.org/CodeSystem/observation-category code 'laboratory' = 'Laboratory)</span></p><p><b>code</b>: Genetic variant assessment <span style=\"background: LightGoldenRodYellow\">(Details : {LOINC code '69548-6' = 'Genetic variant assessment', given as 'Genetic variant assessment'})</span></p><p><b>subject</b>: <a href=\"urn:uuid:d0b4affa-91d6-46d1-af01-b30d9f16ef6d\">urn:uuid:d0b4affa-91d6-46d1-af01-b30d9f16ef6d</a></p><p><b>performer</b>: <a href=\"urn:uuid:a48256f8-db37-44e0-a0f6-d7af16c7c9ef\">urn:uuid:a48256f8-db37-44e0-a0f6-d7af16c7c9ef</a></p><p><b>value</b>: Present <span style=\"background: LightGoldenRodYellow\">(Details : {LOINC code 'LA9633-4' = 'Present', given as 'Present'})</span></p><p><b>method</b>: Sequencing <span style=\"background: LightGoldenRodYellow\">(Details : {LOINC code 'LA26398-0' = 'Sequencing', given as 'Sequencing'})</span></p><p><b>specimen</b>: <a href=\"urn:uuid:a5d6a6a9-4859-480e-85b2-56974fef3b9d\">urn:uuid:a5d6a6a9-4859-480e-85b2-56974fef3b9d</a></p><blockquote><p><b>component</b></p><p><b>code</b>: Genomic DNA change (gHGVS) <span style=\"background: LightGoldenRodYellow\">(Details : {LOINC code '81290-9' = 'Genomic DNA change (gHGVS)', given as 'Genomic DNA change (gHGVS)'})</span></p><p><b>value</b>: 4:g.55972974T&gt;A <span style=\"background: LightGoldenRodYellow\">(Details : {http://varnomen.hgvs.org code '4:g.55972974T&gt;A' = '4:g.55972974T&gt;A', given as '4:g.55972974T&gt;A'})</span></p></blockquote><blockquote><p><b>component</b></p><p><b>code</b>: Amino acid change (pHGVS) <span style=\"background: LightGoldenRodYellow\">(Details : {LOINC code '48005-3' = 'Amino acid change (pHGVS)', given as 'Amino acid change (pHGVS)'})</span></p><p><b>value</b>: p.Gln472His <span style=\"background: LightGoldenRodYellow\">(Details : {http://varnomen.hgvs.org code 'p.Gln472His' = 'p.Gln472His', given as 'p.Gln472His'})</span></p></blockquote><blockquote><p><b>component</b></p><p><b>code</b>: Amino acid change type <span style=\"background: LightGoldenRodYellow\">(Details : {LOINC code '48006-1' = 'Amino acid change [Type]', given as 'Amino acid change type'})</span></p><p><b>value</b>: Missense <span style=\"background: LightGoldenRodYellow\">(Details : {LOINC code 'LA6698-0' = 'Missense', given as 'Missense'})</span></p></blockquote><blockquote><p><b>component</b></p><p><b>code</b>: Genomic source class <span style=\"background: LightGoldenRodYellow\">(Details : {LOINC code '48002-0' = 'Genomic source class [Type]', given as 'Genomic source class'})</span></p><p><b>value</b>: Germline <span style=\"background: LightGoldenRodYellow\">(Details : {LOINC code 'LA6683-2' = 'Germline', given as 'Germline'})</span></p></blockquote><blockquote><p><b>component</b></p><p><b>code</b>: Gene studied ID <span style=\"background: LightGoldenRodYellow\">(Details : {LOINC code '48018-6' = 'Gene studied [ID]', given as 'Gene studied ID'})</span></p><p><b>value</b>: KDR <span style=\"background: LightGoldenRodYellow\">(Details : {http://www.genenames.org/geneId code 'null' = 'null', given as 'KDR'})</span></p></blockquote></div>"},"status":"final","category":[{"coding":[{"system":"http://terminology.hl7.org/CodeSystem/observation-category","code":"laboratory"}]}],"code":{"coding":[{"system":"http://loinc.org","code":"69548-6","display":"Genetic variant assessment"}]},"subject":{"reference":"urn:uuid:d0b4affa-91d6-46d1-af01-b30d9f16ef6d"},"performer":[{"reference":"urn:uuid:a48256f8-db37-44e0-a0f6-d7af16c7c9ef"}],"valueCodeableConcept":{"coding":[{"system":"http://loinc.org","code":"LA9633-4","display":"Present"}]},"method":{"coding":[{"system":"http://loinc.org","code":"LA26398-0","display":"Sequencing"}]},"specimen":{"reference":"urn:uuid:a5d6a6a9-4859-480e-85b2-56974fef3b9d"},"component":[{"code":{"coding":[{"system":"http://loinc.org","code":"81290-9","display":"Genomic DNA change (gHGVS)"}]},"valueCodeableConcept":{"coding":[{"system":"http://varnomen.hgvs.org","code":"4:g.55972974T>A","display":"4:g.55972974T>A"}]}},{"code":{"coding":[{"system":"http://loinc.org","code":"48005-3","display":"Amino acid change (pHGVS)"}]},"valueCodeableConcept":{"coding":[{"system":"http://varnomen.hgvs.org","code":"p.Gln472His","display":"p.Gln472His"}]}},{"code":{"coding":[{"system":"http://loinc.org","code":"48006-1","display":"Amino acid change type"}]},"valueCodeableConcept":{"coding":[{"system":"http://loinc.org","code":"LA6698-0","display":"Missense"}]}},{"code":{"coding":[{"system":"http://loinc.org","code":"48002-0","display":"Genomic source class"}]},"valueCodeableConcept":{"coding":[{"system":"http://loinc.org","code":"LA6683-2","display":"Germline"}]}},{"code":{"coding":[{"system":"http://loinc.org","code":"48018-6","display":"Gene studied ID"}]},"valueCodeableConcept":{"coding":[{"system":"http://www.genenames.org/geneId","display":"KDR"}]}}]},"request":{"method":"POST","url":"Observation"}},{"fullUrl":"urn:uuid:b33eb7ec-d83e-49d2-b0f3-729d024ebe01","resource":{"resourceType":"Observation","meta":{"profile":["http://hl7.org/fhir/uv/genomics-reporting/StructureDefinition/variant"]},"text":{"status":"generated","div":"<div xmlns=\"http://www.w3.org/1999/xhtml\"><p><b>Generated Narrative with Details</b></p><p><b>meta</b>: </p><p><b>status</b>: final</p><p><b>category</b>: Laboratory <span style=\"background: LightGoldenRodYellow\">(Details : {http://terminology.hl7.org/CodeSystem/observation-category code 'laboratory' = 'Laboratory)</span></p><p><b>code</b>: Genetic variant assessment <span style=\"background: LightGoldenRodYellow\">(Details : {LOINC code '69548-6' = 'Genetic variant assessment', given as 'Genetic variant assessment'})</span></p><p><b>subject</b>: <a href=\"urn:uuid:d0b4affa-91d6-46d1-af01-b30d9f16ef6d\">urn:uuid:d0b4affa-91d6-46d1-af01-b30d9f16ef6d</a></p><p><b>performer</b>: <a href=\"urn:uuid:a48256f8-db37-44e0-a0f6-d7af16c7c9ef\">urn:uuid:a48256f8-db37-44e0-a0f6-d7af16c7c9ef</a></p><p><b>value</b>: Present <span style=\"background: LightGoldenRodYellow\">(Details : {LOINC code 'LA9633-4' = 'Present', given as 'Present'})</span></p><p><b>method</b>: Sequencing <span style=\"background: LightGoldenRodYellow\">(Details : {LOINC code 'LA26398-0' = 'Sequencing', given as 'Sequencing'})</span></p><p><b>specimen</b>: <a href=\"urn:uuid:a5d6a6a9-4859-480e-85b2-56974fef3b9d\">urn:uuid:a5d6a6a9-4859-480e-85b2-56974fef3b9d</a></p><blockquote><p><b>component</b></p><p><b>code</b>: Genomic DNA change (gHGVS) <span style=\"background: LightGoldenRodYellow\">(Details : {LOINC code '81290-9' = 'Genomic DNA change (gHGVS)', given as 'Genomic DNA change (gHGVS)'})</span></p><p><b>value</b>: 2:g.212578380del <span style=\"background: LightGoldenRodYellow\">(Details : {http://varnomen.hgvs.org code '2:g.212578380del' = '2:g.212578380del', given as '2:g.212578380del'})</span></p></blockquote><blockquote><p><b>component</b></p><p><b>code</b>: Amino acid change type <span style=\"background: LightGoldenRodYellow\">(Details : {LOINC code '48006-1' = 'Amino acid change [Type]', given as 'Amino acid change type'})</span></p><p><b>value</b>: Missense <span style=\"background: LightGoldenRodYellow\">(Details : {LOINC code 'LA6698-0' = 'Missense', given as 'Missense'})</span></p></blockquote><blockquote><p><b>component</b></p><p><b>code</b>: Genomic source class <span style=\"background: LightGoldenRodYellow\">(Details : {LOINC code '48002-0' = 'Genomic source class [Type]', given as 'Genomic source class'})</span></p><p><b>value</b>: Germline <span style=\"background: LightGoldenRodYellow\">(Details : {LOINC code 'LA6683-2' = 'Germline', given as 'Germline'})</span></p></blockquote><blockquote><p><b>component</b></p><p><b>code</b>: Gene studied ID <span style=\"background: LightGoldenRodYellow\">(Details : {LOINC code '48018-6' = 'Gene studied [ID]', given as 'Gene studied ID'})</span></p><p><b>value</b>: ERBB4 <span style=\"background: LightGoldenRodYellow\">(Details : {http://www.genenames.org/geneId code 'null' = 'null', given as 'ERBB4'})</span></p></blockquote></div>"},"status":"final","category":[{"coding":[{"system":"http://terminology.hl7.org/CodeSystem/observation-category","code":"laboratory"}]}],"code":{"coding":[{"system":"http://loinc.org","code":"69548-6","display":"Genetic variant assessment"}]},"subject":{"reference":"urn:uuid:d0b4affa-91d6-46d1-af01-b30d9f16ef6d"},"performer":[{"reference":"urn:uuid:a48256f8-db37-44e0-a0f6-d7af16c7c9ef"}],"valueCodeableConcept":{"coding":[{"system":"http://loinc.org","code":"LA9633-4","display":"Present"}]},"method":{"coding":[{"system":"http://loinc.org","code":"LA26398-0","display":"Sequencing"}]},"specimen":{"reference":"urn:uuid:a5d6a6a9-4859-480e-85b2-56974fef3b9d"},"component":[{"code":{"coding":[{"system":"http://loinc.org","code":"81290-9","display":"Genomic DNA change (gHGVS)"}]},"valueCodeableConcept":{"coding":[{"system":"http://varnomen.hgvs.org","code":"2:g.212578380del","display":"2:g.212578380del"}]}},{"code":{"coding":[{"system":"http://loinc.org","code":"48006-1","display":"Amino acid change type"}]},"valueCodeableConcept":{"coding":[{"system":"http://loinc.org","code":"LA6698-0","display":"Missense"}]}},{"code":{"coding":[{"system":"http://loinc.org","code":"48002-0","display":"Genomic source class"}]},"valueCodeableConcept":{"coding":[{"system":"http://loinc.org","code":"LA6683-2","display":"Germline"}]}},{"code":{"coding":[{"system":"http://loinc.org","code":"48018-6","display":"Gene studied ID"}]},"valueCodeableConcept":{"coding":[{"system":"http://www.genenames.org/geneId","display":"ERBB4"}]}}]},"request":{"method":"POST","url":"Observation"}},{"fullUrl":"urn:uuid:1bf9642d-fd1c-4819-8c5d-44fae4bad524","resource":{"resourceType":"Observation","meta":{"profile":["http://hl7.org/fhir/uv/genomics-reporting/StructureDefinition/somatic-predictive"]},"text":{"status":"generated","div":"<div xmlns=\"http://www.w3.org/1999/xhtml\"><p><b>Generated Narrative with Details</b></p><p><b>meta</b>: </p><p><b>status</b>: final</p><p><b>category</b>: Laboratory <span style=\"background: LightGoldenRodYellow\">(Details : {http://terminology.hl7.org/CodeSystem/observation-category code 'laboratory' = 'Laboratory)</span></p><p><b>code</b>: Somatic variant predicted effect on Cancer medication <span style=\"background: LightGoldenRodYellow\">(Details : {http://hl7.org/fhir/uv/genomics-reporting/CodeSystem/tbd-codes code 'somatic-predictive' = 'Somatic variant predicted effect on Cancer medication', given as 'Somatic variant predicted effect on Cancer medication'})</span></p><p><b>subject</b>: <a href=\"urn:uuid:d0b4affa-91d6-46d1-af01-b30d9f16ef6d\">urn:uuid:d0b4affa-91d6-46d1-af01-b30d9f16ef6d</a></p><p><b>performer</b>: <a href=\"urn:uuid:a48256f8-db37-44e0-a0f6-d7af16c7c9ef\">urn:uuid:a48256f8-db37-44e0-a0f6-d7af16c7c9ef</a></p><p><b>value</b>: Responsive <span style=\"background: LightGoldenRodYellow\">(Details )</span></p><p><b>method</b>: Computational analysis <span style=\"background: LightGoldenRodYellow\">(Details : {LOINC code 'LA26811-2' = 'Computational analysis', given as 'Computational analysis'})</span></p><p><b>specimen</b>: <a href=\"urn:uuid:a5d6a6a9-4859-480e-85b2-56974fef3b9d\">urn:uuid:a5d6a6a9-4859-480e-85b2-56974fef3b9d</a></p><p><b>derivedFrom</b>: <a href=\"urn:uuid:16fdd5fc-e665-48af-99e4-48d603f3e12d\">urn:uuid:16fdd5fc-e665-48af-99e4-48d603f3e12d</a></p><blockquote><p><b>component</b></p><p><b>code</b>: Level of Evidence <span style=\"background: LightGoldenRodYellow\">(Details : {LOINC code '93044-6' = 'Level of evidence', given as 'Level of Evidence'})</span></p><p><b>value</b>: AMP Guidelines <span style=\"background: LightGoldenRodYellow\">(Details )</span></p></blockquote><blockquote><p><b>component</b></p><p><b>code</b>: associated-cancer <span style=\"background: LightGoldenRodYellow\">(Details : {http://hl7.org/fhir/uv/genomics-reporting/CodeSystem/tbd-codes code 'associated-cancer' = 'associated-cancer)</span></p><p><b>value</b>: Polycythemia vera (PV) <span style=\"background: LightGoldenRodYellow\">(Details )</span></p></blockquote><blockquote><p><b>component</b></p><p><b>code</b>: somatic-predictive-medication <span style=\"background: LightGoldenRodYellow\">(Details : {http://hl7.org/fhir/uv/genomics-reporting/CodeSystem/tbd-codes code 'somatic-predictive-medication' = 'somatic-predictive-medication)</span></p><p><b>value</b>: Ruxolitinib <span style=\"background: LightGoldenRodYellow\">(Details )</span></p></blockquote></div>"},"status":"final","category":[{"coding":[{"system":"http://terminology.hl7.org/CodeSystem/observation-category","code":"laboratory"}]}],"code":{"coding":[{"system":"http://hl7.org/fhir/uv/genomics-reporting/CodeSystem/tbd-codes","code":"somatic-predictive","display":"Somatic variant predicted effect on Cancer medication"}]},"subject":{"reference":"urn:uuid:d0b4affa-91d6-46d1-af01-b30d9f16ef6d"},"performer":[{"reference":"urn:uuid:a48256f8-db37-44e0-a0f6-d7af16c7c9ef"}],"valueCodeableConcept":{"text":"Responsive"},"method":{"coding":[{"system":"http://loinc.org","code":"LA26811-2","display":"Computational analysis"}]},"specimen":{"reference":"urn:uuid:a5d6a6a9-4859-480e-85b2-56974fef3b9d"},"derivedFrom":[{"reference":"urn:uuid:16fdd5fc-e665-48af-99e4-48d603f3e12d"}],"component":[{"code":{"coding":[{"system":"http://loinc.org","code":"93044-6","display":"Level of Evidence"}]},"valueCodeableConcept":{"text":"AMP Guidelines"}},{"code":{"coding":[{"system":"http://hl7.org/fhir/uv/genomics-reporting/CodeSystem/tbd-codes","code":"associated-cancer"}]},"valueCodeableConcept":{"text":"Polycythemia vera (PV)"}},{"code":{"coding":[{"system":"http://hl7.org/fhir/uv/genomics-reporting/CodeSystem/tbd-codes","code":"somatic-predictive-medication"}]},"valueCodeableConcept":{"text":"Ruxolitinib"}}]},"request":{"method":"POST","url":"Observation"}},{"fullUrl":"urn:uuid:1301943b-55db-4adf-8355-3635f7268a1b","resource":{"resourceType":"Observation","meta":{"profile":["http://hl7.org/fhir/uv/genomics-reporting/StructureDefinition/somatic-predictive"]},"text":{"status":"generated","div":"<div xmlns=\"http://www.w3.org/1999/xhtml\"><p><b>Generated Narrative with Details</b></p><p><b>meta</b>: </p><p><b>status</b>: final</p><p><b>category</b>: Laboratory <span style=\"background: LightGoldenRodYellow\">(Details : {http://terminology.hl7.org/CodeSystem/observation-category code 'laboratory' = 'Laboratory)</span></p><p><b>code</b>: Somatic variant predicted effect on Cancer medication <span style=\"background: LightGoldenRodYellow\">(Details : {http://hl7.org/fhir/uv/genomics-reporting/CodeSystem/tbd-codes code 'somatic-predictive' = 'Somatic variant predicted effect on Cancer medication', given as 'Somatic variant predicted effect on Cancer medication'})</span></p><p><b>subject</b>: <a href=\"urn:uuid:d0b4affa-91d6-46d1-af01-b30d9f16ef6d\">urn:uuid:d0b4affa-91d6-46d1-af01-b30d9f16ef6d</a></p><p><b>performer</b>: <a href=\"urn:uuid:a48256f8-db37-44e0-a0f6-d7af16c7c9ef\">urn:uuid:a48256f8-db37-44e0-a0f6-d7af16c7c9ef</a></p><p><b>value</b>: Responsive <span style=\"background: LightGoldenRodYellow\">(Details )</span></p><p><b>method</b>: Computational analysis <span style=\"background: LightGoldenRodYellow\">(Details : {LOINC code 'LA26811-2' = 'Computational analysis', given as 'Computational analysis'})</span></p><p><b>specimen</b>: <a href=\"urn:uuid:a5d6a6a9-4859-480e-85b2-56974fef3b9d\">urn:uuid:a5d6a6a9-4859-480e-85b2-56974fef3b9d</a></p><p><b>derivedFrom</b>: <a href=\"urn:uuid:16fdd5fc-e665-48af-99e4-48d603f3e12d\">urn:uuid:16fdd5fc-e665-48af-99e4-48d603f3e12d</a></p><blockquote><p><b>component</b></p><p><b>code</b>: Level of Evidence <span style=\"background: LightGoldenRodYellow\">(Details : {LOINC code '93044-6' = 'Level of evidence', given as 'Level of Evidence'})</span></p><p><b>value</b>: AMP Guidelines <span style=\"background: LightGoldenRodYellow\">(Details )</span></p></blockquote><blockquote><p><b>component</b></p><p><b>code</b>: associated-cancer <span style=\"background: LightGoldenRodYellow\">(Details : {http://hl7.org/fhir/uv/genomics-reporting/CodeSystem/tbd-codes code 'associated-cancer' = 'associated-cancer)</span></p><p><b>value</b>: Polycythemia vera (PV) <span style=\"background: LightGoldenRodYellow\">(Details )</span></p></blockquote><blockquote><p><b>component</b></p><p><b>code</b>: somatic-predictive-medication <span style=\"background: LightGoldenRodYellow\">(Details : {http://hl7.org/fhir/uv/genomics-reporting/CodeSystem/tbd-codes code 'somatic-predictive-medication' = 'somatic-predictive-medication)</span></p><p><b>value</b>: AT9283 <span style=\"background: LightGoldenRodYellow\">(Details )</span></p></blockquote></div>"},"status":"final","category":[{"coding":[{"system":"http://terminology.hl7.org/CodeSystem/observation-category","code":"laboratory"}]}],"code":{"coding":[{"system":"http://hl7.org/fhir/uv/genomics-reporting/CodeSystem/tbd-codes","code":"somatic-predictive","display":"Somatic variant predicted effect on Cancer medication"}]},"subject":{"reference":"urn:uuid:d0b4affa-91d6-46d1-af01-b30d9f16ef6d"},"performer":[{"reference":"urn:uuid:a48256f8-db37-44e0-a0f6-d7af16c7c9ef"}],"valueCodeableConcept":{"text":"Responsive"},"method":{"coding":[{"system":"http://loinc.org","code":"LA26811-2","display":"Computational analysis"}]},"specimen":{"reference":"urn:uuid:a5d6a6a9-4859-480e-85b2-56974fef3b9d"},"derivedFrom":[{"reference":"urn:uuid:16fdd5fc-e665-48af-99e4-48d603f3e12d"}],"component":[{"code":{"coding":[{"system":"http://loinc.org","code":"93044-6","display":"Level of Evidence"}]},"valueCodeableConcept":{"text":"AMP Guidelines"}},{"code":{"coding":[{"system":"http://hl7.org/fhir/uv/genomics-reporting/CodeSystem/tbd-codes","code":"associated-cancer"}]},"valueCodeableConcept":{"text":"Polycythemia vera (PV)"}},{"code":{"coding":[{"system":"http://hl7.org/fhir/uv/genomics-reporting/CodeSystem/tbd-codes","code":"somatic-predictive-medication"}]},"valueCodeableConcept":{"text":"AT9283"}}]},"request":{"method":"POST","url":"Observation"}},{"fullUrl":"urn:uuid:05713d1c-0df5-46d5-a5a9-2085eef56c20","resource":{"resourceType":"Observation","meta":{"profile":["http://hl7.org/fhir/uv/genomics-reporting/StructureDefinition/somatic-predictive"]},"text":{"status":"generated","div":"<div xmlns=\"http://www.w3.org/1999/xhtml\"><p><b>Generated Narrative with Details</b></p><p><b>meta</b>: </p><p><b>status</b>: final</p><p><b>category</b>: Laboratory <span style=\"background: LightGoldenRodYellow\">(Details : {http://terminology.hl7.org/CodeSystem/observation-category code 'laboratory' = 'Laboratory)</span></p><p><b>code</b>: Somatic variant predicted effect on Cancer medication <span style=\"background: LightGoldenRodYellow\">(Details : {http://hl7.org/fhir/uv/genomics-reporting/CodeSystem/tbd-codes code 'somatic-predictive' = 'Somatic variant predicted effect on Cancer medication', given as 'Somatic variant predicted effect on Cancer medication'})</span></p><p><b>subject</b>: <a href=\"urn:uuid:d0b4affa-91d6-46d1-af01-b30d9f16ef6d\">urn:uuid:d0b4affa-91d6-46d1-af01-b30d9f16ef6d</a></p><p><b>performer</b>: <a href=\"urn:uuid:a48256f8-db37-44e0-a0f6-d7af16c7c9ef\">urn:uuid:a48256f8-db37-44e0-a0f6-d7af16c7c9ef</a></p><p><b>value</b>: Responsive <span style=\"background: LightGoldenRodYellow\">(Details )</span></p><p><b>method</b>: Computational analysis <span style=\"background: LightGoldenRodYellow\">(Details : {LOINC code 'LA26811-2' = 'Computational analysis', given as 'Computational analysis'})</span></p><p><b>specimen</b>: <a href=\"urn:uuid:a5d6a6a9-4859-480e-85b2-56974fef3b9d\">urn:uuid:a5d6a6a9-4859-480e-85b2-56974fef3b9d</a></p><p><b>derivedFrom</b>: <a href=\"urn:uuid:16fdd5fc-e665-48af-99e4-48d603f3e12d\">urn:uuid:16fdd5fc-e665-48af-99e4-48d603f3e12d</a></p><blockquote><p><b>component</b></p><p><b>code</b>: Level of Evidence <span style=\"background: LightGoldenRodYellow\">(Details : {LOINC code '93044-6' = 'Level of evidence', given as 'Level of Evidence'})</span></p><p><b>value</b>: AMP Guidelines <span style=\"background: LightGoldenRodYellow\">(Details )</span></p></blockquote><blockquote><p><b>component</b></p><p><b>code</b>: associated-cancer <span style=\"background: LightGoldenRodYellow\">(Details : {http://hl7.org/fhir/uv/genomics-reporting/CodeSystem/tbd-codes code 'associated-cancer' = 'associated-cancer)</span></p><p><b>value</b>: Polycythemia vera (PV) <span style=\"background: LightGoldenRodYellow\">(Details )</span></p></blockquote><blockquote><p><b>component</b></p><p><b>code</b>: somatic-predictive-medication <span style=\"background: LightGoldenRodYellow\">(Details : {http://hl7.org/fhir/uv/genomics-reporting/CodeSystem/tbd-codes code 'somatic-predictive-medication' = 'somatic-predictive-medication)</span></p><p><b>value</b>: SNX-5422 <span style=\"background: LightGoldenRodYellow\">(Details )</span></p></blockquote></div>"},"status":"final","category":[{"coding":[{"system":"http://terminology.hl7.org/CodeSystem/observation-category","code":"laboratory"}]}],"code":{"coding":[{"system":"http://hl7.org/fhir/uv/genomics-reporting/CodeSystem/tbd-codes","code":"somatic-predictive","display":"Somatic variant predicted effect on Cancer medication"}]},"subject":{"reference":"urn:uuid:d0b4affa-91d6-46d1-af01-b30d9f16ef6d"},"performer":[{"reference":"urn:uuid:a48256f8-db37-44e0-a0f6-d7af16c7c9ef"}],"valueCodeableConcept":{"text":"Responsive"},"method":{"coding":[{"system":"http://loinc.org","code":"LA26811-2","display":"Computational analysis"}]},"specimen":{"reference":"urn:uuid:a5d6a6a9-4859-480e-85b2-56974fef3b9d"},"derivedFrom":[{"reference":"urn:uuid:16fdd5fc-e665-48af-99e4-48d603f3e12d"}],"component":[{"code":{"coding":[{"system":"http://loinc.org","code":"93044-6","display":"Level of Evidence"}]},"valueCodeableConcept":{"text":"AMP Guidelines"}},{"code":{"coding":[{"system":"http://hl7.org/fhir/uv/genomics-reporting/CodeSystem/tbd-codes","code":"associated-cancer"}]},"valueCodeableConcept":{"text":"Polycythemia vera (PV)"}},{"code":{"coding":[{"system":"http://hl7.org/fhir/uv/genomics-reporting/CodeSystem/tbd-codes","code":"somatic-predictive-medication"}]},"valueCodeableConcept":{"text":"SNX-5422"}}]},"request":{"method":"POST","url":"Observation"}},{"fullUrl":"urn:uuid:294f1401-e2eb-4df1-b6d2-09e1b7a6eca4","resource":{"resourceType":"Observation","meta":{"profile":["http://hl7.org/fhir/uv/genomics-reporting/StructureDefinition/somatic-predictive"]},"text":{"status":"generated","div":"<div xmlns=\"http://www.w3.org/1999/xhtml\"><p><b>Generated Narrative with Details</b></p><p><b>meta</b>: </p><p><b>status</b>: final</p><p><b>category</b>: Laboratory <span style=\"background: LightGoldenRodYellow\">(Details : {http://terminology.hl7.org/CodeSystem/observation-category code 'laboratory' = 'Laboratory)</span></p><p><b>code</b>: Somatic variant predicted effect on Cancer medication <span style=\"background: LightGoldenRodYellow\">(Details : {http://hl7.org/fhir/uv/genomics-reporting/CodeSystem/tbd-codes code 'somatic-predictive' = 'Somatic variant predicted effect on Cancer medication', given as 'Somatic variant predicted effect on Cancer medication'})</span></p><p><b>subject</b>: <a href=\"urn:uuid:d0b4affa-91d6-46d1-af01-b30d9f16ef6d\">urn:uuid:d0b4affa-91d6-46d1-af01-b30d9f16ef6d</a></p><p><b>performer</b>: <a href=\"urn:uuid:a48256f8-db37-44e0-a0f6-d7af16c7c9ef\">urn:uuid:a48256f8-db37-44e0-a0f6-d7af16c7c9ef</a></p><p><b>value</b>: Responsive <span style=\"background: LightGoldenRodYellow\">(Details )</span></p><p><b>method</b>: Computational analysis <span style=\"background: LightGoldenRodYellow\">(Details : {LOINC code 'LA26811-2' = 'Computational analysis', given as 'Computational analysis'})</span></p><p><b>specimen</b>: <a href=\"urn:uuid:a5d6a6a9-4859-480e-85b2-56974fef3b9d\">urn:uuid:a5d6a6a9-4859-480e-85b2-56974fef3b9d</a></p><p><b>derivedFrom</b>: <a href=\"urn:uuid:16fdd5fc-e665-48af-99e4-48d603f3e12d\">urn:uuid:16fdd5fc-e665-48af-99e4-48d603f3e12d</a></p><blockquote><p><b>component</b></p><p><b>code</b>: Level of Evidence <span style=\"background: LightGoldenRodYellow\">(Details : {LOINC code '93044-6' = 'Level of evidence', given as 'Level of Evidence'})</span></p><p><b>value</b>: AMP Guidelines <span style=\"background: LightGoldenRodYellow\">(Details )</span></p></blockquote><blockquote><p><b>component</b></p><p><b>code</b>: associated-cancer <span style=\"background: LightGoldenRodYellow\">(Details : {http://hl7.org/fhir/uv/genomics-reporting/CodeSystem/tbd-codes code 'associated-cancer' = 'associated-cancer)</span></p><p><b>value</b>: Polycythemia vera (PV) <span style=\"background: LightGoldenRodYellow\">(Details )</span></p></blockquote><blockquote><p><b>component</b></p><p><b>code</b>: somatic-predictive-medication <span style=\"background: LightGoldenRodYellow\">(Details : {http://hl7.org/fhir/uv/genomics-reporting/CodeSystem/tbd-codes code 'somatic-predictive-medication' = 'somatic-predictive-medication)</span></p><p><b>value</b>: TG02 <span style=\"background: LightGoldenRodYellow\">(Details )</span></p></blockquote></div>"},"status":"final","category":[{"coding":[{"system":"http://terminology.hl7.org/CodeSystem/observation-category","code":"laboratory"}]}],"code":{"coding":[{"system":"http://hl7.org/fhir/uv/genomics-reporting/CodeSystem/tbd-codes","code":"somatic-predictive","display":"Somatic variant predicted effect on Cancer medication"}]},"subject":{"reference":"urn:uuid:d0b4affa-91d6-46d1-af01-b30d9f16ef6d"},"performer":[{"reference":"urn:uuid:a48256f8-db37-44e0-a0f6-d7af16c7c9ef"}],"valueCodeableConcept":{"text":"Responsive"},"method":{"coding":[{"system":"http://loinc.org","code":"LA26811-2","display":"Computational analysis"}]},"specimen":{"reference":"urn:uuid:a5d6a6a9-4859-480e-85b2-56974fef3b9d"},"derivedFrom":[{"reference":"urn:uuid:16fdd5fc-e665-48af-99e4-48d603f3e12d"}],"component":[{"code":{"coding":[{"system":"http://loinc.org","code":"93044-6","display":"Level of Evidence"}]},"valueCodeableConcept":{"text":"AMP Guidelines"}},{"code":{"coding":[{"system":"http://hl7.org/fhir/uv/genomics-reporting/CodeSystem/tbd-codes","code":"associated-cancer"}]},"valueCodeableConcept":{"text":"Polycythemia vera (PV)"}},{"code":{"coding":[{"system":"http://hl7.org/fhir/uv/genomics-reporting/CodeSystem/tbd-codes","code":"somatic-predictive-medication"}]},"valueCodeableConcept":{"text":"TG02"}}]},"request":{"method":"POST","url":"Observation"}},{"fullUrl":"urn:uuid:16fdd5fc-e665-48af-99e4-48d603f3e12f","resource":{"resourceType":"Observation","meta":{"profile":["http://hl7.org/fhir/uv/genomics-reporting/StructureDefinition/grouper"]},"text":{"status":"generated","div":"<div xmlns=\"http://www.w3.org/1999/xhtml\"><p><b>Generated Narrative with Details</b></p><p><b>meta</b>: </p><p><b>status</b>: final</p><p><b>category</b>: Laboratory <span style=\"background: LightGoldenRodYellow\">(Details : {http://terminology.hl7.org/CodeSystem/observation-category code 'laboratory' = 'Laboratory)</span></p><p><b>code</b>: grouper <span style=\"background: LightGoldenRodYellow\">(Details : {http://hl7.org/fhir/uv/genomics-reporting/CodeSystem/tbd-codes code 'grouper' = 'grouper', given as 'grouper'})</span></p><p><b>hasMember</b>: </p><ul><li><a href=\"urn:uuid:16fdd5fc-e665-48af-99e4-48d603f3e12d\">SNV analysis for JAK2 variant</a></li><li><a href=\"urn:uuid:772de7d7-e1bd-4183-bdb5-cea8eda317cd\">SNV analysis for KDR variant</a></li><li><a href=\"urn:uuid:b33eb7ec-d83e-49d2-b0f3-729d024ebe01\">SNV analysis for ERBB4 variant</a></li><li><a href=\"urn:uuid:40e85eda-4d31-4bd2-a5a0-c39d63f9824f\">TMB value analysis</a></li><li><a href=\"urn:uuid:64b91716-6431-41bd-8fd4-7ac99bebdee9\">MSI status analysis</a></li></ul></div>"},"status":"final","category":[{"coding":[{"system":"http://terminology.hl7.org/CodeSystem/observation-category","code":"laboratory"}]}],"code":{"coding":[{"system":"http://hl7.org/fhir/uv/genomics-reporting/CodeSystem/tbd-codes","code":"grouper","display":"grouper"}]},"hasMember":[{"reference":"urn:uuid:16fdd5fc-e665-48af-99e4-48d603f3e12d","display":"SNV analysis for JAK2 variant"},{"reference":"urn:uuid:772de7d7-e1bd-4183-bdb5-cea8eda317cd","display":"SNV analysis for KDR variant"},{"reference":"urn:uuid:b33eb7ec-d83e-49d2-b0f3-729d024ebe01","display":"SNV analysis for ERBB4 variant"},{"reference":"urn:uuid:40e85eda-4d31-4bd2-a5a0-c39d63f9824f","display":"TMB value analysis"},{"reference":"urn:uuid:64b91716-6431-41bd-8fd4-7ac99bebdee9","display":"MSI status analysis"}]},"request":{"method":"POST","url":"Observation"}},{"fullUrl":"urn:uuid:16fdd5fc-e665-48af-99e4-48d603f3e12e","resource":{"resourceType":"Observation","meta":{"profile":["http://hl7.org/fhir/uv/genomics-reporting/StructureDefinition/grouper"]},"text":{"status":"generated","div":"<div xmlns=\"http://www.w3.org/1999/xhtml\"><p><b>Generated Narrative with Details</b></p><p><b>meta</b>: </p><p><b>status</b>: final</p><p><b>category</b>: Laboratory <span style=\"background: LightGoldenRodYellow\">(Details : {http://terminology.hl7.org/CodeSystem/observation-category code 'laboratory' = 'Laboratory)</span></p><p><b>code</b>: grouper <span style=\"background: LightGoldenRodYellow\">(Details : {http://hl7.org/fhir/uv/genomics-reporting/CodeSystem/tbd-codes code 'grouper' = 'grouper', given as 'grouper'})</span></p><p><b>hasMember</b>: </p><ul><li><a href=\"urn:uuid:1bf9642d-fd1c-4819-8c5d-44fae4bad524\">Therapy match result 1</a></li><li><a href=\"urn:uuid:1301943b-55db-4adf-8355-3635f7268a1b\">Therapy match result 2</a></li><li><a href=\"urn:uuid:05713d1c-0df5-46d5-a5a9-2085eef56c20\">Therapy match result 3</a></li><li><a href=\"urn:uuid:294f1401-e2eb-4df1-b6d2-09e1b7a6eca4\">Therapy match result 4</a></li></ul></div>"},"status":"final","category":[{"coding":[{"system":"http://terminology.hl7.org/CodeSystem/observation-category","code":"laboratory"}]}],"code":{"coding":[{"system":"http://hl7.org/fhir/uv/genomics-reporting/CodeSystem/tbd-codes","code":"grouper","display":"grouper"}]},"hasMember":[{"reference":"urn:uuid:1bf9642d-fd1c-4819-8c5d-44fae4bad524","display":"Therapy match result 1"},{"reference":"urn:uuid:1301943b-55db-4adf-8355-3635f7268a1b","display":"Therapy match result 2"},{"reference":"urn:uuid:05713d1c-0df5-46d5-a5a9-2085eef56c20","display":"Therapy match result 3"},{"reference":"urn:uuid:294f1401-e2eb-4df1-b6d2-09e1b7a6eca4","display":"Therapy match result 4"}]},"request":{"method":"POST","url":"Observation"}},{"fullUrl":"urn:uuid:ad7a499b-a43b-4cc8-bf46-cac62d9ecae5","resource":{"resourceType":"DiagnosticReport","meta":{"profile":["http://hl7.org/fhir/uv/genomics-reporting/StructureDefinition/genomics-report"]},"text":{"status":"generated","div":"<div xmlns=\"http://www.w3.org/1999/xhtml\"><p><b>Generated Narrative with Details</b></p><p><b>meta</b>: </p><p><b>status</b>: final</p><p><b>code</b>: Genetic analysis report <span style=\"background: LightGoldenRodYellow\">(Details : {LOINC code '81247-9' = 'Master HL7 genetic variant reporting panel', given as 'Master HL7 genetic variant reporting panel'})</span></p><p><b>subject</b>: <a href=\"urn:uuid:d0b4affa-91d6-46d1-af01-b30d9f16ef6d\">urn:uuid:d0b4affa-91d6-46d1-af01-b30d9f16ef6d</a></p><p><b>performer</b>: <a href=\"urn:uuid:a48256f8-db37-44e0-a0f6-d7af16c7c9ef\">urn:uuid:a48256f8-db37-44e0-a0f6-d7af16c7c9ef</a></p><p><b>specimen</b>: <a href=\"urn:uuid:a5d6a6a9-4859-480e-85b2-56974fef3b9d\">urn:uuid:a5d6a6a9-4859-480e-85b2-56974fef3b9d</a></p><p><b>result</b>: </p><ul><li><a href=\"urn:uuid:16fdd5fc-e665-48af-99e4-48d603f3e12f\">Variants and other biomarker tests</a></li><li><a href=\"urn:uuid:16fdd5fc-e665-48af-99e4-48d603f3e12e\">Therapy Match Results</a></li></ul></div>"},"status":"final","code":{"coding":[{"system":"http://loinc.org","code":"81247-9","display":"Master HL7 genetic variant reporting panel"}],"text":"Genetic analysis report"},"subject":{"reference":"urn:uuid:d0b4affa-91d6-46d1-af01-b30d9f16ef6d"},"performer":[{"reference":"urn:uuid:a48256f8-db37-44e0-a0f6-d7af16c7c9ef"}],"specimen":[{"reference":"urn:uuid:a5d6a6a9-4859-480e-85b2-56974fef3b9d"}],"result":[{"reference":"urn:uuid:16fdd5fc-e665-48af-99e4-48d603f3e12f","display":"Variants and other biomarker tests"},{"reference":"urn:uuid:16fdd5fc-e665-48af-99e4-48d603f3e12e","display":"Therapy Match Results"}]},"request":{"method":"POST","url":"DiagnosticReport"}}]}