{"resourceType":"Bundle","id":"compound-heterozygote","type":"transaction","entry":[{"fullUrl":"urn:uuid:16fdd5fc-e665-48af-99e4-48d603f3e12d","resource":{"resourceType":"Observation","meta":{"profile":["http://hl7.org/fhir/uv/genomics-reporting/StructureDefinition/variant"]},"text":{"status":"generated","div":"<div xmlns=\"http://www.w3.org/1999/xhtml\"><p><b>Generated Narrative with Details</b></p><p><b>meta</b>: </p><p><b>status</b>: final</p><p><b>category</b>: Laboratory <span style=\"background: LightGoldenRodYellow\">(Details : {http://terminology.hl7.org/CodeSystem/observation-category code 'laboratory' = 'Laboratory)</span></p><p><b>code</b>: Genetic variant assessment <span style=\"background: LightGoldenRodYellow\">(Details : {LOINC code '69548-6' = 'Genetic variant assessment', given as 'Genetic variant assessment'})</span></p><p><b>value</b>: Present <span style=\"background: LightGoldenRodYellow\">(Details : {LOINC code 'LA9633-4' = 'Present', given as 'Present'})</span></p><h3>Components</h3><table class=\"grid\"><tr><td>-</td><td><b>Code</b></td><td><b>Value[x]</b></td></tr><tr><td>*</td><td>DNA change (c.HGVS) <span style=\"background: LightGoldenRodYellow\">(Details : {LOINC code '48004-6' = 'DNA change (c.HGVS)', given as 'DNA change (c.HGVS)'})</span></td><td>NM_022787.3:c.769G&gt;A <span style=\"background: LightGoldenRodYellow\">(Details : {http://varnomen.hgvs.org code 'NM_022787.3:c.769G&gt;A' = 'NM_022787.3:c.769G&gt;A', given as 'NM_022787.3:c.769G&gt;A'})</span></td></tr></table></div>"},"status":"final","category":[{"coding":[{"system":"http://terminology.hl7.org/CodeSystem/observation-category","code":"laboratory"}]}],"code":{"coding":[{"system":"http://loinc.org","code":"69548-6","display":"Genetic variant assessment"}]},"valueCodeableConcept":{"coding":[{"system":"http://loinc.org","code":"LA9633-4","display":"Present"}]},"component":[{"code":{"coding":[{"system":"http://loinc.org","code":"48004-6","display":"DNA change (c.HGVS)"}]},"valueCodeableConcept":{"coding":[{"system":"http://varnomen.hgvs.org","code":"NM_022787.3:c.769G>A","display":"NM_022787.3:c.769G>A"}]}}]},"request":{"method":"POST","url":"Observation"}},{"fullUrl":"urn:uuid:16fdd5fc-e665-48af-99e4-48d603f3e12e","resource":{"resourceType":"Observation","meta":{"profile":["http://hl7.org/fhir/uv/genomics-reporting/StructureDefinition/variant"]},"text":{"status":"generated","div":"<div xmlns=\"http://www.w3.org/1999/xhtml\"><p><b>Generated Narrative with Details</b></p><p><b>meta</b>: </p><p><b>status</b>: final</p><p><b>category</b>: Laboratory <span style=\"background: LightGoldenRodYellow\">(Details : {http://terminology.hl7.org/CodeSystem/observation-category code 'laboratory' = 'Laboratory)</span></p><p><b>code</b>: Genetic variant assessment <span style=\"background: LightGoldenRodYellow\">(Details : {LOINC code '69548-6' = 'Genetic variant assessment', given as 'Genetic variant assessment'})</span></p><p><b>value</b>: Present <span style=\"background: LightGoldenRodYellow\">(Details : {LOINC code 'LA9633-4' = 'Present', given as 'Present'})</span></p><h3>Components</h3><table class=\"grid\"><tr><td>-</td><td><b>Code</b></td><td><b>Value[x]</b></td></tr><tr><td>*</td><td>DNA change (c.HGVS) <span style=\"background: LightGoldenRodYellow\">(Details : {LOINC code '48004-6' = 'DNA change (c.HGVS)', given as 'DNA change (c.HGVS)'})</span></td><td>NM_022787.3:c.53A&gt;G <span style=\"background: LightGoldenRodYellow\">(Details : {http://varnomen.hgvs.org code 'NM_022787.3:c.53A&gt;G' = 'NM_022787.3:c.53A&gt;G', given as 'NM_022787.3:c.53A&gt;G'})</span></td></tr></table></div>"},"status":"final","category":[{"coding":[{"system":"http://terminology.hl7.org/CodeSystem/observation-category","code":"laboratory"}]}],"code":{"coding":[{"system":"http://loinc.org","code":"69548-6","display":"Genetic variant assessment"}]},"valueCodeableConcept":{"coding":[{"system":"http://loinc.org","code":"LA9633-4","display":"Present"}]},"component":[{"code":{"coding":[{"system":"http://loinc.org","code":"48004-6","display":"DNA change (c.HGVS)"}]},"valueCodeableConcept":{"coding":[{"system":"http://varnomen.hgvs.org","code":"NM_022787.3:c.53A>G","display":"NM_022787.3:c.53A>G"}]}}]},"request":{"method":"POST","url":"Observation"}},{"fullUrl":"urn:uuid:16fdd5fc-e665-48af-99e4-48d603f3e12a","resource":{"resourceType":"Observation","meta":{"profile":["http://hl7.org/fhir/uv/genomics-reporting/StructureDefinition/variant"]},"text":{"status":"generated","div":"<div xmlns=\"http://www.w3.org/1999/xhtml\"><p><b>Generated Narrative with Details</b></p><p><b>meta</b>: </p><p><b>status</b>: final</p><p><b>category</b>: Laboratory <span style=\"background: LightGoldenRodYellow\">(Details : {http://terminology.hl7.org/CodeSystem/observation-category code 'laboratory' = 'Laboratory)</span></p><p><b>code</b>: Genetic variant assessment <span style=\"background: LightGoldenRodYellow\">(Details : {LOINC code '69548-6' = 'Genetic variant assessment', given as 'Genetic variant assessment'})</span></p><p><b>value</b>: Present <span style=\"background: LightGoldenRodYellow\">(Details : {LOINC code 'LA9633-4' = 'Present', given as 'Present'})</span></p><p><b>hasMember</b>: </p><ul><li><a href=\"urn:uuid:16fdd5fc-e665-48af-99e4-48d603f3e12e\">NM_022787.3:c.53A&gt;G</a></li><li><a href=\"urn:uuid:16fdd5fc-e665-48af-99e4-48d603f3e12d\">NM_022787.3:c.769G&gt;A</a></li></ul><h3>Components</h3><table class=\"grid\"><tr><td>-</td><td><b>Code</b></td><td><b>Value[x]</b></td></tr><tr><td>*</td><td>Complex Variant Type <span style=\"background: LightGoldenRodYellow\">(Details : {LOINC code '81263-6' = 'Complex variant type', given as 'Complex Variant Type'})</span></td><td>Compound heterozygous <span style=\"background: LightGoldenRodYellow\">(Details : {LOINC code 'LA26217-2' = 'Compound heterozygous', given as 'Compound heterozygous'})</span></td></tr></table></div>"},"status":"final","category":[{"coding":[{"system":"http://terminology.hl7.org/CodeSystem/observation-category","code":"laboratory"}]}],"code":{"coding":[{"system":"http://loinc.org","code":"69548-6","display":"Genetic variant assessment"}]},"valueCodeableConcept":{"coding":[{"system":"http://loinc.org","code":"LA9633-4","display":"Present"}]},"hasMember":[{"reference":"urn:uuid:16fdd5fc-e665-48af-99e4-48d603f3e12e","display":"NM_022787.3:c.53A>G"},{"reference":"urn:uuid:16fdd5fc-e665-48af-99e4-48d603f3e12d","display":"NM_022787.3:c.769G>A"}],"component":[{"code":{"coding":[{"system":"http://loinc.org","code":"81263-6","display":"Complex Variant Type"}]},"valueCodeableConcept":{"coding":[{"system":"http://loinc.org","code":"LA26217-2","display":"Compound heterozygous"}]}}]},"request":{"method":"POST","url":"Observation"}}]}